<Bundle xmlns="http://hl7.org/fhir">
   <id value="example-rec-11-opioid-trigger-with-benzo"/>
   <type value="transaction"/>
   <entry>
      <fullUrl value="http://measure.eval.kanvix.com/cqf-ruler/baseDstu3/Patient/example-rec-11-opioid-trigger-with-benzo"/>
      <resource>
         <Patient xmlns="http://hl7.org/fhir">
            <id value="example-rec-11-opioid-trigger-with-benzo"/>
            <gender value="female"/>
            <birthDate value="1982-01-07"/>
         </Patient>
      </resource>
      <request>
         <method value="PUT"/>
         <url value="http://measure.eval.kanvix.com/cqf-ruler/baseDstu3/Patient/example-rec-11-opioid-trigger-with-benzo"/>
      </request>
   </entry>
   <entry>
      <fullUrl value="http://measure.eval.kanvix.com/cqf-ruler/baseDstu3/MedicationRequest/example-rec-11-opioid-trigger-with-benzo-prefetch"/>
      <resource>
         <MedicationRequest xmlns="http://hl7.org/fhir">
            <id value="example-rec-11-opioid-trigger-with-benzo-prefetch"/>
            <status value="active"/>
            <intent value="order"/>
            <category>
               <coding>
                  <code value="outpatient"/>
               </coding>
            </category>
            <medicationCodeableConcept>
               <coding>
                  <system value="http://www.nlm.nih.gov/research/umls/rxnorm"/>
                  <code value="1298088"/>
                  <display value="Flurazepam Hydrochloride 15 MG Oral Capsule"/>
               </coding>
            </medicationCodeableConcept>
            <subject>
               <reference value="Patient/example-rec-11-opioid-trigger-with-benzo"/>
            </subject>
            <context>
               <reference value="Encounter/example-rec-11-opioid-trigger-with-benzo-prefetch"/>
            </context>
            <authoredOn>
               <extension url="http://hl7.org/fhir/StructureDefinition/cqif-cqlExpression">
                  <valueString value="Today() - 4 weeks"/>
               </extension>
            </authoredOn>
            <dosageInstruction>
               <timing>
                  <repeat>
                     <frequency value="1"/>
                     <period value="1.0"/>
                     <periodUnit value="d"/>
                  </repeat>
               </timing>
               <asNeededBoolean value="false"/>
               <doseQuantity>
                  <value value="1.0"/>
                  <unit value="capsule"/>
               </doseQuantity>
            </dosageInstruction>
            <dispenseRequest>
               <validityPeriod>
                  <extension url="http://hl7.org/fhir/StructureDefinition/cqif-cqlExpression">
                     <valueString value="FHIR.Period { start: FHIR.dateTime { value: Today() - 4 weeks }, end: FHIR.dateTime { value: Today() + 3 months } }"/>
                  </extension>
               </validityPeriod>
               <numberOfRepeatsAllowed value="3"/>
               <expectedSupplyDuration>
                  <value value="30.0"/>
                  <unit value="d"/>
               </expectedSupplyDuration>
            </dispenseRequest>
         </MedicationRequest>
      </resource>
      <request>
         <method value="PUT"/>
         <url value="http://measure.eval.kanvix.com/cqf-ruler/baseDstu3/MedicationRequest/example-rec-11-opioid-trigger-with-benzo-prefetch"/>
      </request>
   </entry>
   <entry>
      <fullUrl value="http://measure.eval.kanvix.com/cqf-ruler/baseDstu3/Encounter/example-rec-11-opioid-trigger-with-benzo-context"/>
      <resource>
         <Encounter xmlns="http://hl7.org/fhir">
            <id value="example-rec-11-opioid-trigger-with-benzo-context"/>
            <status value="finished"/>
            <subject>
               <reference value="Patient/example-rec-11-opioid-trigger-with-benzo"/>
            </subject>
            <period>
               <extension url="http://hl7.org/fhir/StructureDefinition/cqif-cqlExpression">
                  <valueString value="FHIR.Period { start: FHIR.dateTime { value: Today() }, end: FHIR.dateTime { value: Today() } }"/>
               </extension>
            </period>
         </Encounter>
      </resource>
      <request>
         <method value="PUT"/>
         <url value="http://measure.eval.kanvix.com/cqf-ruler/baseDstu3/Encounter/example-rec-11-opioid-trigger-with-benzo-context"/>
      </request>
   </entry>
   <entry>
      <fullUrl value="http://measure.eval.kanvix.com/cqf-ruler/baseDstu3/Encounter/example-rec-11-opioid-trigger-with-benzo-prefetch"/>
      <resource>
         <Encounter xmlns="http://hl7.org/fhir">
            <id value="example-rec-11-opioid-trigger-with-benzo-prefetch"/>
            <status value="finished"/>
            <subject>
               <reference value="Patient/example-rec-11-opioid-trigger-with-benzo"/>
            </subject>
            <period>
               <extension url="http://hl7.org/fhir/StructureDefinition/cqif-cqlExpression">
                  <valueString value="FHIR.Period { start: FHIR.dateTime { value: Today() - 4 weeks }, end: FHIR.dateTime { value: Today() - 4 weeks } }"/>
               </extension>
            </period>
         </Encounter>
      </resource>
      <request>
         <method value="PUT"/>
         <url value="http://measure.eval.kanvix.com/cqf-ruler/baseDstu3/Encounter/example-rec-11-opioid-trigger-with-benzo-prefetch"/>
      </request>
   </entry>
</Bundle>