<Bundle xmlns="http://hl7.org/fhir">
    <id value="example-rec-11-benzo-trigger-with-opioid"/>
    <type value="transaction"/>
    <entry>
        <fullUrl value="http://measure.eval.kanvix.com/cqf-ruler/baseDstu3/Patient/example-rec-11-benzo-trigger-with-opioid"/>
        <resource>
            <Patient xmlns="http://hl7.org/fhir">
                <id value="example-rec-11-benzo-trigger-with-opioid"/>
                <gender value="female"/>
                <birthDate value="1982-01-07"/>
            </Patient>
        </resource>
        <request>
            <method value="PUT"/>
            <url value="http://measure.eval.kanvix.com/cqf-ruler/baseDstu3/Patient/example-rec-11-benzo-trigger-with-opioid"/>
        </request>
    </entry>
    <entry>
        <fullUrl value="http://measure.eval.kanvix.com/cqf-ruler/baseDstu3/MedicationRequest/example-rec-11-benzo-trigger-with-opioid-context"/>
        <resource>
            <MedicationRequest xmlns="http://hl7.org/fhir">
                <id value="example-rec-11-benzo-trigger-with-opioid-context"/>
                <intent value="order"/>
                <medicationCodeableConcept>
                    <coding>
                        <system value="http://www.nlm.nih.gov/research/umls/rxnorm"/>
                        <code value="1298088"/>
                        <display value="Flurazepam Hydrochloride 15 MG Oral Capsule"/>
                    </coding>
                </medicationCodeableConcept>
                <subject>
                    <reference value="Patient/example-rec-11-benzo-trigger-with-opioid"/>
                </subject>
                <context>
                    <reference value="Encounter/example-rec-11-benzo-trigger-with-opioid-context"/>
                </context>
                <authoredOn value="2018-03-19T01:38:50-06:00"/>
            </MedicationRequest>
        </resource>
        <request>
            <method value="PUT"/>
            <url value="http://measure.eval.kanvix.com/cqf-ruler/baseDstu3/MedicationRequest/example-rec-11-benzo-trigger-with-opioid-context"/>
        </request>
    </entry>
    <entry>
        <fullUrl value="http://measure.eval.kanvix.com/cqf-ruler/baseDstu3/MedicationRequest/example-rec-11-benzo-trigger-with-opioid-oxycodone"/>
        <resource>
            <MedicationRequest xmlns="http://hl7.org/fhir">
                <id value="example-rec-11-benzo-trigger-with-opioid-oxycodone"/>
                <intent value="order"/>
                <medicationCodeableConcept>
                    <coding>
                        <system value="http://www.nlm.nih.gov/research/umls/rxnorm"/>
                        <code value="1049502"/>
                        <display value="12 HR Oxycodone Hydrochloride 10 MG Extended Release Oral Tablet"/>
                    </coding>
                </medicationCodeableConcept>
                <subject>
                    <reference value="Patient/example-rec-11-benzo-trigger-with-opioid"/>
                </subject>
                <context>
                    <reference value="Encounter/example-rec-11-benzo-trigger-with-opioid-oxycodone"/>
                </context>
                <authoredOn value="2018-02-19T00:00:00-07:00"/>
            </MedicationRequest>
        </resource>
        <request>
            <method value="PUT"/>
            <url value="http://measure.eval.kanvix.com/cqf-ruler/baseDstu3/MedicationRequest/example-rec-11-benzo-trigger-with-opioid-oxycodone"/>
        </request>
    </entry>
    <entry>
        <fullUrl value="http://measure.eval.kanvix.com/cqf-ruler/baseDstu3/Encounter/example-rec-11-benzo-trigger-with-opioid-context"/>
        <resource>
            <Encounter xmlns="http://hl7.org/fhir">
                <id value="example-rec-11-benzo-trigger-with-opioid-context"/>
                <status value="finished"/>
                <subject>
                    <reference value="Patient/example-rec-11-benzo-trigger-with-opioid"/>
                </subject>
                <period>
                    <start value="2018-03-19T01:38:49-06:00"/>
                    <end value="2018-03-19T01:38:49-06:00"/>
                </period>
            </Encounter>
        </resource>
        <request>
            <method value="PUT"/>
            <url value="http://measure.eval.kanvix.com/cqf-ruler/baseDstu3/Encounter/example-rec-11-benzo-trigger-with-opioid-context"/>
        </request>
    </entry>
    <entry>
        <fullUrl value="http://measure.eval.kanvix.com/cqf-ruler/baseDstu3/Encounter/example-rec-11-benzo-trigger-with-opioid-oxycodone"/>
        <resource>
            <Encounter xmlns="http://hl7.org/fhir">
                <id value="example-rec-11-benzo-trigger-with-opioid-oxycodone"/>
                <status value="finished"/>
                <subject>
                    <reference value="Patient/example-rec-11-benzo-trigger-with-opioid"/>
                </subject>
                <period>
                    <start value="2018-02-19T00:00:00-07:00"/>
                    <end value="2018-02-19T00:00:00-07:00"/>
                </period>
            </Encounter>
        </resource>
        <request>
            <method value="PUT"/>
            <url value="http://measure.eval.kanvix.com/cqf-ruler/baseDstu3/Encounter/example-rec-11-benzo-trigger-with-opioid-oxycodone"/>
        </request>
    </entry>
</Bundle>