<Bundle xmlns="http://hl7.org/fhir">
    <id value="example-rec-07-six-of-past-ten-days"/>
    <type value="transaction"/>
    <entry>
        <fullUrl value="http://measure.eval.kanvix.com/cqf-ruler/baseDstu3/Patient/example-rec-07-six-of-past-ten-days"/>
        <resource>
            <Patient xmlns="http://hl7.org/fhir">
                <id value="example-rec-07-six-of-past-ten-days"/>
                <gender value="male"/>
                <birthDate value="1982-01-07"/>
            </Patient>
        </resource>
        <request>
            <method value="PUT"/>
            <url value="http://measure.eval.kanvix.com/cqf-ruler/baseDstu3/Patient/example-rec-07-six-of-past-ten-days"/>
        </request>
    </entry>
    <entry>
        <fullUrl value="http://measure.eval.kanvix.com/cqf-ruler/baseDstu3/MedicationRequest/example-rec-07-six-of-past-ten-days-context"/>
        <resource>
            <MedicationRequest xmlns="http://hl7.org/fhir">
                <id value="example-rec-07-six-of-past-ten-days-context"/>
                <status value="active"/>
                <intent value="order"/>
                <category>
                    <coding>
                        <code value="outpatient"/>
                    </coding>
                </category>
                <medicationCodeableConcept>
                    <coding>
                        <system value="http://www.nlm.nih.gov/research/umls/rxnorm"/>
                        <code value="1049502"/>
                        <display value="12 HR Oxycodone Hydrochloride 10 MG Extended Release Oral Tablet"/>
                    </coding>
                </medicationCodeableConcept>
                <subject>
                    <reference value="Patient/example-rec-07-six-of-past-ten-days"/>
                </subject>
                <context>
                    <reference value="Encounter/example-rec-07-six-of-past-ten-days-new"/>
                </context>
                <authoredOn value="2018-03-18T18:22:21-06:00"/>
                <dosageInstruction>
                    <timing>
                        <repeat>
                            <frequency value="1"/>
                            <period value="1.0"/>
                            <periodUnit value="d"/>
                        </repeat>
                    </timing>
                </dosageInstruction>
                <dispenseRequest>
                    <validityPeriod>
                        <start value="2018-03-18T18:22:21-06:00"/>
                        <end value="2018-06-18T00:00:00-06:00"/>
                    </validityPeriod>
                    <numberOfRepeatsAllowed value="1"/>
                    <expectedSupplyDuration>
                        <value value="7.0"/>
                        <unit value="d"/>
                    </expectedSupplyDuration>
                </dispenseRequest>
            </MedicationRequest>
        </resource>
        <request>
            <method value="PUT"/>
            <url value="http://measure.eval.kanvix.com/cqf-ruler/baseDstu3/MedicationRequest/example-rec-07-six-of-past-ten-days-context"/>
        </request>
    </entry>
    <entry>
        <fullUrl value="http://measure.eval.kanvix.com/cqf-ruler/baseDstu3/MedicationRequest/example-rec-07-six-of-past-ten-days-oxycodone"/>
        <resource>
            <MedicationRequest xmlns="http://hl7.org/fhir">
                <id value="example-rec-07-six-of-past-ten-days-oxycodone"/>
                <status value="active"/>
                <intent value="order"/>
                <category>
                    <coding>
                        <code value="outpatient"/>
                    </coding>
                </category>
                <medicationCodeableConcept>
                    <coding>
                        <system value="http://www.nlm.nih.gov/research/umls/rxnorm"/>
                        <code value="1049502"/>
                        <display value="12 HR Oxycodone Hydrochloride 10 MG Extended Release Oral Tablet"/>
                    </coding>
                </medicationCodeableConcept>
                <subject>
                    <reference value="Patient/example-rec-07-six-of-past-ten-days"/>
                </subject>
                <context>
                    <reference value="Encounter/example-rec-07-six-of-past-ten-days-old"/>
                </context>
                <authoredOn value="2018-03-08T00:00:00-07:00"/>
                <dosageInstruction>
                    <timing>
                        <repeat>
                            <frequency value="1"/>
                            <period value="1.0"/>
                            <periodUnit value="d"/>
                        </repeat>
                    </timing>
                </dosageInstruction>
                <dispenseRequest>
                    <validityPeriod>
                        <start value="2018-03-08T00:00:00-07:00"/>
                        <end value="2018-03-18T18:22:21-06:00"/>
                    </validityPeriod>
                    <numberOfRepeatsAllowed value="1"/>
                    <expectedSupplyDuration>
                        <value value="6.0"/>
                        <unit value="d"/>
                    </expectedSupplyDuration>
                </dispenseRequest>
            </MedicationRequest>
        </resource>
        <request>
            <method value="PUT"/>
            <url value="http://measure.eval.kanvix.com/cqf-ruler/baseDstu3/MedicationRequest/example-rec-07-six-of-past-ten-days-oxycodone"/>
        </request>
    </entry>
    <entry>
        <fullUrl value="http://measure.eval.kanvix.com/cqf-ruler/baseDstu3/Encounter/example-rec-07-six-of-past-ten-days-new"/>
        <resource>
            <Encounter xmlns="http://hl7.org/fhir">
                <id value="example-rec-07-six-of-past-ten-days-new"/>
                <status value="finished"/>
                <subject>
                    <reference value="Patient/example-rec-07-six-of-past-ten-days"/>
                </subject>
                <period>
                    <start value="2018-03-18T18:22:21-06:00"/>
                    <end value="2018-03-18T18:22:21-06:00"/>
                </period>
            </Encounter>
        </resource>
        <request>
            <method value="PUT"/>
            <url value="http://measure.eval.kanvix.com/cqf-ruler/baseDstu3/Encounter/example-rec-07-six-of-past-ten-days-new"/>
        </request>
    </entry>
    <entry>
        <fullUrl value="http://measure.eval.kanvix.com/cqf-ruler/baseDstu3/Encounter/example-rec-07-six-of-past-ten-days-old"/>
        <resource>
            <Encounter xmlns="http://hl7.org/fhir">
                <id value="example-rec-07-six-of-past-ten-days-old"/>
                <status value="finished"/>
                <subject>
                    <reference value="Patient/example-rec-07-seven-of-past-ten-days"/>
                </subject>
                <period>
                    <start value="2018-03-08T00:00:00-07:00"/>
                    <end value="2018-03-08T00:00:00-07:00"/>
                </period>
            </Encounter>
        </resource>
        <request>
            <method value="PUT"/>
            <url value="http://measure.eval.kanvix.com/cqf-ruler/baseDstu3/Encounter/example-rec-07-six-of-past-ten-days-old"/>
        </request>
    </entry>
</Bundle>