<Bundle xmlns="http://hl7.org/fhir">
   <id value="example-rec-07-risk-assessment"/>
   <type value="transaction"/>
   <entry>
      <fullUrl value="http://measure.eval.kanvix.com/cqf-ruler/baseDstu3/Patient/example-rec-07-risk-assessment"/>
      <resource>
         <Patient xmlns="http://hl7.org/fhir">
            <id value="example-rec-07-risk-assessment"/>
            <gender value="male"/>
            <birthDate value="1982-01-07"/>
         </Patient>
      </resource>
      <request>
         <method value="PUT"/>
         <url value="http://measure.eval.kanvix.com/cqf-ruler/baseDstu3/Patient/example-rec-07-risk-assessment"/>
      </request>
   </entry>
   <entry>
      <fullUrl value="http://measure.eval.kanvix.com/cqf-ruler/baseDstu3/Procedure/example-rec-07-risk-assessment-prefetch"/>
      <resource>
         <Procedure xmlns="http://hl7.org/fhir">
            <id value="example-rec-07-risk-assessment-prefetch"/>
            <status value="completed"/>
            <code>
               <coding>
                  <system value="http://snomed.info/sct"/>
                  <code value="454281000124100"/>
                  <display value="Assessment of risk for opioid abuse (procedure)"/>
               </coding>
            </code>
            <subject>
               <reference value="Patient/example-rec-07-risk-assessment"/>
            </subject>
            <context>
               <reference value="Encounter/example-rec-07-risk-assessment-prefetch"/>
            </context>
            <performedPeriod>
               <start>
                  <extension url="http://hl7.org/fhir/StructureDefinition/cqif-cqlExpression">
                     <valueString value="FHIR.Period { start: FHIR.dateTime { value: Today() - 2 weeks }, end: FHIR.dateTime { value: Today() - 2 weeks } }"/>
                  </extension>
               </start>
            </performedPeriod>
         </Procedure>
      </resource>
      <request>
         <method value="PUT"/>
         <url value="http://measure.eval.kanvix.com/cqf-ruler/baseDstu3/Procedure/example-rec-07-risk-assessment-prefetch"/>
      </request>
   </entry>
   <entry>
      <fullUrl value="http://measure.eval.kanvix.com/cqf-ruler/baseDstu3/Encounter/example-rec-07-risk-assessment-context"/>
      <resource>
         <Encounter xmlns="http://hl7.org/fhir">
            <id value="example-rec-07-risk-assessment-context"/>
            <status value="finished"/>
            <subject>
               <reference value="Patient/example-rec-07-risk-assessment"/>
            </subject>
            <period>
               <extension url="http://hl7.org/fhir/StructureDefinition/cqif-cqlExpression">
                  <valueString value="FHIR.Period { start: FHIR.dateTime { value: Today() }, end: FHIR.dateTime { value: Today() } }"/>
               </extension>
            </period>
         </Encounter>
      </resource>
      <request>
         <method value="PUT"/>
         <url value="http://measure.eval.kanvix.com/cqf-ruler/baseDstu3/Encounter/example-rec-07-risk-assessment-context"/>
      </request>
   </entry>
   <entry>
      <fullUrl value="http://measure.eval.kanvix.com/cqf-ruler/baseDstu3/Encounter/example-rec-07-risk-assessment-prefetch"/>
      <resource>
         <Encounter xmlns="http://hl7.org/fhir">
            <id value="example-rec-07-risk-assessment-prefetch"/>
            <status value="finished"/>
            <subject>
               <reference value="Patient/example-rec-07-risk-assessment"/>
            </subject>
            <period>
               <extension url="http://hl7.org/fhir/StructureDefinition/cqif-cqlExpression">
                  <valueString value="FHIR.Period { start: FHIR.dateTime { value: Today() - 2 weeks }, end: FHIR.dateTime { value: Today() - 2 weeks } }"/>
               </extension>
            </period>
         </Encounter>
      </resource>
      <request>
         <method value="PUT"/>
         <url value="http://measure.eval.kanvix.com/cqf-ruler/baseDstu3/Encounter/example-rec-07-risk-assessment-prefetch"/>
      </request>
   </entry>
</Bundle>